Folder: AI_methods_in_advanced_materials_research/Spectra (IR and RAMAN)/4_5-IMINE-PYRENE/ethanol_solvent

Note: Spectra (IR and RAMAN)/4_5-IMINE-PYRENE/ethanol_solvent/Readme.md
# 4_5-IMINE-PYRENE-EtOH

## Input file (general structure coming soon)

<pre>
```bash
%nprocshared=4
%mem=4GB
%chk=C:\Users\jared\Desktop\spectras\4-ONE_5-IMINE-PYRENE_EtOH\solvent\4_5-IMINE-PYRENE.chk
# freq=raman b3lyp/6-311++g(d,p)

Title Card Required

0 1 
 C                 -3.53067833   -0.50651839    0.00001203
 C                 -2.80438817   -1.68367941    0.00001003
 C                 -1.39320107   -1.67404227   -0.00000298
 C                 -0.70925313   -0.42801112   -0.00001598
 C                 -1.47254130    0.76875990   -0.00002498
```
</pre>

The structure that I generated in gaussview (tutorial coming soon):
![SVG Image](4_5-IMINE-PYRENE.svg)

## Raman Spectra of molecule

![RAMAN Spectra](4_5-IMINE-PYRENE_EtOH_RAMAN.svg)  

[Text File of Raman Spectra](./4_5-IMINE-PYRENE_EtOH_RAMAN.txt)  

[Click here to see the vibrations corresponding to the frequency -- in the form of a youtube video](https://youtu.be/WoUj-lxuMKM)  

### IR Spectra
![IR Spectra](4_5-IMINE-PYRENE_EtOH_IR.svg)  

[Text File of IR Spectra](./4_5-IMINE-PYRENE_EtOH_IR.txt)  

[Click here to see the vibrations corresponding to the frequency -- in the form of a youtube video](https://youtu.be/WoUj-lxuMKM)

File: 4_5-IMINE-PYRENE_EtOH_RAMAN.txt
# Raman Scattering Spectrum
# X-Axis:  Frequency (cm-1)
# Y-Axis:  Intensity (10-36 m2 cm/sr)

# Harmonic Data

# Peak information (Harmonic)
#                  X                   Y
#      57.4298        0.116281
#     150.486        0.0453001
#     155.525        0.0150476
#     224.741        0.0902959
#     267.958        0.108941
#     329.69        0.230251
#     347.545        0.0701116
#     388.63        1.74643
#     399.678        0.215096
#     401.596        0.318144
#     413.428        0.196398
#     465.294        0.230405
#     491.82        0.0014812
#     493.303        3.56487
#     510.18        0.0264369
#     555.734        0.00437206
#     565.652        1.06354
#     573.189        0.0770666
#     583.272        0.0258796
#     603.997        0.0595339
#     663.166        0.136357
#     709.439        0.0268311
#     717.77        0.0003409365
#     725.106        0.31804
#     755.152        0.0878901
#     779.338        0.00149722
#     799.084        0.350772
#     816.113        0.061919
#     818.814        0.226598
#     835.38        0.00152661
#     846.567        0.0003709628
#     870.638        0.125864
#     901.771        1.04536
#     946.381        0.0412028
#     950.713        0.0453465
#     991.764        0.179526
#    1005.22        0.0309101
#    1006.97        0.0071022
#    1015.07        0.00308659
#    1020.28        0.609257
#    1044.74        0.357916
#    1096.32        2.34968
#    1114.52        0.00860863
#    1171.96        0.198227
#    1183.15        0.126512
#    1189.97        0.222075
#    1218.47        0.359809
#    1218.97        2.5774
#    1235.53        4.81391
#    1258.7        0.118138
#    1324.95        1.45069
#    1336.42        0.00171593
#    1341.89        3.64293
#    1365.1        3.17915
#    1391.67       19.6787
#    1437.8       11.3158
#    1452.37        0.117782
#    1456.86        0.409193
#    1474.37        4.32219
#    1525.92        0.20127
#    1554.3        4.06039
#    1608.67       14.8934
#    1609.02        3.48585
#    1628.13        7.43491
#    1636.6        2.18337
#    1657        2.96403
#    1682.33        0.0001397707
#    3166.3        0.214221
#    3169.61        1.05038
#    3170.14        1.39624
#    3183.44        2.16448
#    3186.59        0.982227
#    3186.95        5.25929
#    3208.05        0.496182
#    3208.15        3.0709
#    3445.38        1.82266
#    3459.63        0.1366

# Plot Curve (Harmonic)
#                  X                   Y               DY/DX
        0.0000000000        0.020477        0.0006796745
       16        0.0382465        0.00177151
       32        0.0976678        0.00736122
       48        0.605686        0.108393
       64        1.07293       -0.237263
       80        0.12886       -0.0101349
       96        0.0552525       -0.00174244
      112        0.0474951        0.0003462004
      128        0.0772539        0.00451661
      144        0.489083        0.101291
      160        0.471275       -0.0954442
      176        0.0906007       -0.00356081
      192        0.0843597        0.00195024
      208        0.198348        0.0183532
      224        2.9109        0.257591
      240        0.327498       -0.0174893
      256        0.499807        0.0521764
      272        1.90211       -0.43587
      288        0.341094       -0.00766642
      304        0.405542        0.0152112
      320        1.39181        0.198647
      336        2.84779       -0.426328
      352        2.12768       -0.226599
      368        2.59226        0.194088
      384       24.8831        5.95417
      400       22.2709        0.340608
      416        7.02731       -1.2055
      432        1.63326       -0.0453895
      448        1.72649        0.0598551
      464        8.84237        1.07919
      480        9.91313        1.19749
      496       76.2511      -17.5748
      512        5.84412       -0.617653
      528        1.97971       -0.0681496
      544        1.91416        0.0726056
      560       11.5343        2.54982
      576        6.28741       -1.04242
      592        1.36076       -0.0666691
      608        1.41207       -0.242703
      624        0.412505       -0.0119226
      640        0.361114        0.00532594
      656        1.09583        0.204694
      672        0.8329       -0.128213
      688        0.309878       -0.0000382132
      704        0.718343        0.0948551
      720        3.78415        0.846755
      736        1.31431       -0.168844
      752        1.9314        0.37401
      768        0.57154       -0.0223541
      784        0.937268        0.0803855
      800       10.1369       -1.00859
      816        6.80527        0.993649
      832        0.991878       -0.087043
      848        0.523583        0.0005647989
      864        1.41881        0.224232
      880        1.61607       -0.0154736
      896        9.76541        2.23806
      912        4.05683       -0.664289
      928        0.865468       -0.0407646
      944        1.61759        0.250942
      960        0.67879       -0.0444895
      976        0.707445        0.0391424
      992        5.60382       -0.109245
     1008        2.97322        0.0588197
     1024        9.72938       -2.21868
     1040        5.15162        0.949112
     1056        1.99033       -0.155013
     1072        2.07875        0.116202
     1088       12.2912        2.32912
     1104       13.9333       -2.77057
     1120        2.24827       -0.158012
     1136        1.19775       -0.0192396
     1152        1.24984        0.029296
     1168        4.23885        0.735813
     1184        7.55653        0.102264
     1200        6.21064        0.257103
     1216       56.2031       12.4844
     1232       78.3869       16.6938
     1248       14.4291       -1.73515
     1264        5.21942       -0.442967
     1280        3.15083       -0.0226582
     1296        3.57746        0.0812034
     1312        7.40785        0.605547
     1328       34.4272       -4.61944
     1344       81.7047      -14.7937
     1360       44.5353        7.49955
     1376       43.1163        2.05686
     1392      499.307      -20.6059
     1408       34.8579       -2.95007
     1424       31.0969        2.50186
     1440      223.433      -45.8762
     1456       31.9547       -0.315246
     1472       86.197       17.0737
     1488       12.5878       -1.22838
     1504        5.44279       -0.119003
     1520        6.2095        0.399772
     1536        8.34479        0.371951
     1552       78.0367       16.1343
     1568       13.618       -0.815788
     1584       15.3853        0.847527
     1600       82.0826       14.7817
     1616      123.422      -18.9418
     1632      129.12      -18.3209
     1648       28.9985        0.359004
     1664       23.0858       -4.02618
     1680        5.05687       -0.275158
     1696        2.59189       -0.0855954
     1712        1.64752       -0.0405266
     1728        1.10478       -0.0224664
     1744        0.819244       -0.0141168
     1760        0.633568       -0.00950746
     1776        0.252697       -0.00371097
     1792        0.0964029       -0.00135994
     1808        0.0494467       -0.0006544911
     1824        0.0000026328       -0.0000000371
     1840        0.0000021259       -0.0000000269
     1856        0.0000000000        0.0000000000
     1872        0.0000000000        0.0000000000
     1888        0.0000000000        0.0000000000
     1904        0.0000000000        0.0000000000
     1920        0.0000000000        0.0000000000
     1936        0.0000000000        0.0000000000
     1952        0.0000000000        0.0000000000
     1968        0.0000000000        0.0000000000
     1984        0.0000000000        0.0000000000
     2000        0.0000000000        0.0000000000
     2016        0.0000000000        0.0000000000
     2032        0.0000000000        0.0000000000
     2048        0.0000000000        0.0000000000
     2064        0.0000000000        0.0000000000
     2080        0.0000000000        0.0000000000
     2096        0.0000000000        0.0000000000
     2112        0.0000000000        0.0000000000
     2128        0.0000000000        0.0000000000
     2144        0.0000000000        0.0000000000
     2160        0.0000000000        0.0000000000
     2176        0.0000000000        0.0000000000
     2192        0.0000000000        0.0000000000
     2208        0.0000000000        0.0000000000
     2224        0.0000000000        0.0000000000
     2240        0.0000000000        0.0000000000
     2256        0.0000000000        0.0000000000
     2272        0.0000000000        0.0000000000
     2288        0.0000000000        0.0000000000
     2304        0.0000000000        0.0000000000
     2320        0.0000000000        0.0000000000
     2336        0.0000000000        0.0000000000
     2352        0.0000000000        0.0000000000
     2368        0.0000000000        0.0000000000
     2384        0.0000000000        0.0000000000
     2400        0.0000000000        0.0000000000
     2416        0.0000000000        0.0000000000
     2432        0.0000000000        0.0000000000
     2448        0.0000000000        0.0000000000
     2464        0.0000000000        0.0000000000
     2480        0.0000000000        0.0000000000
     2496        0.0000000000        0.0000000000
     2512        0.0000000000        0.0000000000
     2528        0.0000000000        0.0000000000
     2544        0.0000000000        0.0000000000
     2560        0.0000000000        0.0000000000
     2576        0.0000000000        0.0000000000
     2592        0.0000000000        0.0000000000
     2608        0.0000000000        0.0000000000
     2624        0.0000000000        0.0000000000
     2640        0.0000000000        0.0000000000
     2656        0.0000000000        0.0000000000
     2672        0.0000000000        0.0000000000
     2688        0.0000000000        0.0000000000
     2704        0.0000000000        0.0000000000
     2720        0.0000000000        0.0000000000
     2736        0.0000000000        0.0000000000
     2752        0.0000000000        0.0000000000
     2768        0.0000000000        0.0000000000
     2784        0.0000000000        0.0000000000
     2800        0.0000000000        0.0000000000
     2816        0.0000000000        0.0000000000
     2832        0.0000000000        0.0000000000
     2848        0.0000000000        0.0000000000
     2864        0.0000000000        0.0000000000
     2880        0.0000000000        0.0000000000
     2896        0.0000000000        0.0000000000
     2912        0.0000000000        0.0000000000
     2928        0.0000000000        0.0000000000
     2944        0.0000000000        0.0000000000
     2960        0.0000000000        0.0000000000
     2976        0.0000000000        0.0000000000
     2992        0.0000000000        0.0000000000
     3008        0.00224874        0.0000283925
     3024        0.0552818        0.0007322631
     3040        0.144851        0.00205519
     3056        0.224453        0.00348101
     3072        0.292688        0.00520309
     3088        0.398136        0.00830223
     3104        0.574519        0.0145278
     3120        0.90641        0.0292916
     3136        1.6676        0.0759124
     3152        4.3499        0.357252
     3168       42.8735        6.48805
     3184      106.553       13.2178
     3200       22.7098        0.750312
     3216       14.6782       -2.58484
     3232        2.80182       -0.179907
     3248        1.2638       -0.0500282
     3264        0.735936       -0.0214596
     3280        0.48561       -0.0113043
     3296        0.365671       -0.00645582
     3312        0.285682       -0.00394001
     3328        0.233737       -0.00235823
     3344        0.16231       -0.0006840723
     3360        0.104712        0.0009658040
     3376        0.0971944        0.00276944
     3392        0.163069        0.0060193
     3408        0.328342        0.0171909
     3424        0.969702        0.086745
     3440       10.0207        2.38754
     3456        4.60864       -0.286911
     3472        0.813077       -0.0740984
     3488        0.284187       -0.0141363
     3499.5        0.17233       -0.00660147